Folder: XRDfitting

File: TestXRDdata.csv
Bulk CNx_step001_speed5deg/1,
θ/2θ - °,Intensity - cps
10,15978.6
10.17,16578.875
10.34,17313.1
10.51,18256.4
10.68,18513.9
10.85,19185.5
11.02,19243.4
11.19,20470.5
11.36,20598.5
11.53,21690
11.7,22915.2
11.87,24564.4
12.04,27837.8
12.21,31696.5
12.38,36076
12.55,40576.9
12.72,44841.1
12.89,46078.7
13.06,45375.2
13.23,44285.6
13.4,43285.5
13.57,42489.5
13.74,39976.3
13.91,39560.9
14.08,38864.3
14.25,37595
14.42,36970.4
14.59,36589.9
14.76,35290.8
14.93,35059.3
15.1,34306.5
15.27,33758.5
15.44,32467.7
15.61,32779.1
15.78,32309.3
15.95,31766.6
16.12,32342.1
16.29,31422.2
16.46,31222.8
16.63,31742.5
16.8,31521.5
16.97,32110.4
17.14,32554.2
17.31,33153.9
17.48,33734.8
17.65,34480.2
17.82,33902.8
17.99,33272.9
18.16,33150.6
18.33,32485.2
18.5,32481.2
18.67,32052.1
18.84,31735.1
19.01,30973.5
19.18,30153.2
19.35,30006.6
19.52,30395.8
19.69,29461.4
19.86,29080.5
20.03,28967.3
20.2,28825.9
20.37,28705.3
20.54,28245.7
20.71,28703.4
20.88,28832.3
21.05,28920.2
21.22,30067.5
21.39,30228.5
21.56,30911.6
21.73,30362.1
21.9,30849
22.07,29584.1
22.24,29794.7
22.41,29268.4
22.58,29285.6
22.75,28338
22.92,28834.5
23.09,28199.8
23.26,28308.6
23.43,28128.8
23.6,28999
23.77,28702.3
23.94,29225.9
24.11,29154.5
24.28,30015.3
24.45,30465.1
24.62,30995.5
24.79,32277.4
24.96,33693.9
25.13,35454.2
25.3,37167.4
25.47,39666.625
25.64,43731.7
25.81,47059.5
25.98,52703.8
26.15,58281.3
26.32,67005.875
26.49,78921.2
26.66,94021.9
26.83,115830
27,139866
27.17,166377
27.34,188147.5
27.51,189490
27.68,169805
27.85,133373.125
28.02,103296
28.19,83082
28.36,67367.6
28.53,53592.8
28.7,45231.4
28.87,41023.2
29.04,37478.8
29.21,33317.6
29.38,31841.7
29.55,29675.8
29.72,28512.6
29.89,27381.8
30.06,26267.4
30.23,25198.7
30.4,24894.2
30.57,24186.9
30.74,23008.9
30.91,22313.8
31.08,21821.6
31.25,20834.7
31.42,20235.8
31.59,19946.1
31.76,19254.6
31.93,19500.3
32.1,18560
32.27,17809
32.44,17587
32.61,17187.2
32.78,17019.1
32.95,16650.5
33.12,16634.3
33.29,15847.4
33.46,15550.1
33.63,15577.7
33.8,15216.4
33.97,14733.3
34.14,14501.2
34.31,14773
34.48,14675.1
34.65,13780.8
34.82,14347.9
34.99,14352.4
35.16,14169.9
35.33,14071
35.5,13325.2
35.67,13487
35.84,13956.3
36.01,13428.9
36.18,13125.3
36.35,12725.9
36.52,13141.2
36.69,13244.2
36.86,12771.3
37.03,12515.8
37.2,12309.2
37.37,12465.8
37.54,12381.7
37.71,12381.7
37.88,12409.3
38.05,11951.25
38.22,12164.5
38.39,12146.7
38.56,12157.5
38.73,12474.9
38.9,12720.8
39.07,12404.2
39.24,12630.9
39.41,12531.1
39.58,12811.3
39.75,12476.3
39.92,12519
40.09,12664.3
40.26,13460.8
40.43,15597.2
40.6,13486.3
40.77,12477.7
40.94,12541.5
41.11,11871.4
41.28,12056.9
41.45,12611.1
41.62,11932.9
41.79,12188.3
41.96,12220.7
42.13,12433.6
42.3,12269.8
42.47,13335
42.64,12665
42.81,12488.9
42.98,13391.4
43.15,13388
43.32,13597.6
43.49,14013
43.66,14248.8
43.83,13745.4
44,13890.6
44.17,14572.4
44.34,14542.3
44.51,14304.2
44.68,13933.1
44.85,14176.2
45.02,13577.4
45.19,13860.1
45.36,13660.9
45.53,13530.7
45.7,12934.1
45.87,13230.5
46.04,13068.6
46.21,13067.6
46.38,12881.5
46.55,12651.4
46.72,12204.3
46.89,12199.9
47.06,11937.2
47.23,12034.4
47.4,11891.1
47.57,11271.3
47.74,11577.4
47.91,11752.9
48.08,11465.9
48.25,11118.4
48.42,11158.5
48.59,10807.1
48.76,10850
48.93,11036.8
49.1,10824.7
49.27,10487.2
49.44,10674.3
49.61,10209.1
49.78,10650.1
49.95,10711.9
50.12,11277.7
50.29,10685.7
50.46,10759.5
50.63,10341.2
50.8,10209
50.97,10425.3
51.14,10426.7
51.31,10348.4
51.48,10123.2
51.65,10182.5
51.82,10213.6
51.99,10327.4
52.16,10138.1
52.33,10057
52.5,9814.25
52.67,10041.4
52.84,10101.8
53.01,9568.19
53.18,9300.84
53.35,9664.88
53.52,9646.65
53.69,9481.84
53.86,9839.7
54.03,9626.63
54.2,9256.83
54.37,9529.09
54.54,9677.38
54.71,9123.06
54.88,9275.18
55.05,9640.29
55.22,9869.12
55.39,9414.51
55.56,9408.86
55.73,9783.48
55.9,9879.86
56.07,10249.7
56.24,10092.7
56.41,10740.6
56.58,10276.1
56.75,10524.6
56.92,10551.5
57.09,10570
57.26,9964.93
57.43,9949.88
57.6,9652.37
57.77,9146.64
57.94,9094.21
58.11,8829.82
58.28,8490.62
58.45,8643.68
58.62,8190.47
58.79,8120.67
58.96,7901.67
59.13,7950.03
59.3,7747.53
59.47,7715.91
59.64,7642.44
59.81,7477.84
59.98,7641.61
60,7585.05